Folder: Algoritmos_python/ambiente_graficado

File: test_tensile.csv
displacement,load
0,0
0.1,9
0.2,21
0.3,30
0.4,41
0.5,49
0.6,61
0.7,71
0.8,80
0.9,91
1,105
1.1,112
1.2,117
1.3,120
1.4,122
1.5,122
1.6,122
1.7,120
1.8,50
1.9,20
2,0